#%Name: Gehlenite ITFA component 2
#%Empirical formula: Ca2Al2(Fe)SiO7
#%Mineral group: melilite
#%Xtal system: Tetragonal 
#%Edge: K
#%Sample prep: powder on kapton tape
#%Beamline: ALS 10.3.2, HxV slits = 100x20 um 
#%Det:  I0=N2, Fluorescence mode (Ge solid state 7elts)
#%Ref/notes:  Mineralogical Research Company, San Jose, CA-USA. XRD confirmed.
#%Temp: Room temp (28C)
#%Time&date: 1:36 PM 1/12/2007
#%Provider: Sirine Fakra, Matthew A. Marcus.
#%==================================================
7.0107500E+3 1.7439579E-3
7.0157500E+3 1.4866791E-3
7.0207500E+3 1.8935975E-3
7.0257500E+3 1.6518174E-3
7.0307500E+3 1.8751916E-3
7.0357500E+3 2.5362334E-3
7.0407500E+3 1.9989569E-3
7.0457500E+3 2.3085215E-3
7.0507500E+3 2.7327880E-3
7.0557500E+3 2.6663583E-3
7.0607500E+3 2.4806404E-3
7.0657500E+3 3.2288154E-3
7.0707500E+3 3.4938099E-3
7.0757500E+3 4.1360177E-3
7.0807500E+3 4.1732407E-3
7.0857500E+3 5.3284425E-3
7.0907500E+3 6.5699164E-3
7.0957500E+3 8.0649837E-3
7.0962500E+3 8.4652774E-3
7.0967500E+3 8.3942911E-3
7.0972500E+3 8.4134693E-3
7.0977500E+3 8.9686200E-3
7.0982500E+3 9.0082719E-3
7.0987500E+3 9.5978537E-3
7.0992500E+3 9.6288600E-3
7.0997500E+3 9.5781060E-3
7.1002500E+3 1.0330375E-2
7.1007500E+3 1.0754662E-2
7.1012500E+3 1.0651264E-2
7.1017500E+3 1.1235768E-2
7.1022500E+3 1.1634241E-2
7.1027500E+3 1.2500078E-2
7.1032500E+3 1.2531275E-2
7.1037500E+3 1.3062868E-2
7.1042500E+3 1.3685338E-2
7.1047500E+3 1.4220648E-2
7.1052500E+3 1.4728802E-2
7.1057500E+3 1.5490160E-2
7.1062500E+3 1.5917774E-2
7.1067500E+3 1.7348624E-2
7.1072500E+3 1.7877186E-2
7.1077500E+3 1.8699938E-2
7.1082500E+3 1.9783842E-2
7.1087500E+3 2.1718722E-2
7.1092500E+3 2.3195900E-2
7.1097500E+3 2.6206390E-2
7.1102500E+3 3.2323026E-2
7.1107500E+3 3.9022513E-2
7.1112500E+3 4.4387539E-2
7.1117500E+3 4.5857555E-2
7.1122500E+3 4.5542631E-2
7.1127500E+3 4.6314221E-2
7.1132500E+3 4.6926746E-2
7.1137500E+3 4.7918919E-2
7.1142500E+3 5.1409399E-2
7.1147500E+3 5.6631621E-2
7.1152500E+3 6.4883079E-2
7.1157500E+3 7.7341083E-2
7.1162500E+3 9.7789038E-2
7.1167500E+3 1.3823339E-1
7.1172500E+3 1.9376714E-1
7.1177500E+3 2.7911260E-1
7.1182500E+3 3.7753123E-1
7.1187500E+3 4.7718218E-1
7.1192500E+3 5.5051910E-1
7.1197500E+3 5.8865583E-1
7.1202500E+3 6.1246194E-1
7.1207500E+3 6.4601953E-1
7.1212500E+3 6.9894580E-1
7.1217500E+3 7.9532491E-1
7.1222500E+3 9.3318152E-1
7.1227500E+3 1.0955814E+0
7.1232500E+3 1.2658255E+0
7.1237500E+3 1.4064290E+0
7.1242500E+3 1.5178067E+0
7.1247500E+3 1.5940115E+0
7.1252500E+3 1.6282655E+0
7.1257500E+3 1.6538270E+0
7.1262500E+3 1.7199846E+0
7.1267500E+3 1.8173040E+0
7.1272500E+3 1.8887614E+0
7.1277500E+3 1.8975950E+0
7.1282500E+3 1.8114116E+0
7.1287500E+3 1.6573733E+0
7.1292500E+3 1.4894300E+0
7.1297500E+3 1.3321392E+0
7.1302500E+3 1.2343890E+0
7.1307500E+3 1.1718226E+0
7.1312500E+3 1.1364967E+0
7.1317500E+3 1.1191099E+0
7.1322500E+3 1.0957858E+0
7.1327500E+3 1.0780264E+0
7.1332500E+3 1.0571862E+0
7.1337500E+3 1.0352616E+0
7.1342500E+3 1.0045188E+0
7.1347500E+3 9.7968515E-1
7.1352500E+3 9.5465158E-1
7.1357500E+3 9.3164679E-1
7.1362500E+3 9.1970128E-1
7.1367500E+3 9.1652106E-1
7.1372500E+3 9.2112495E-1
7.1377500E+3 9.3323149E-1
7.1382500E+3 9.4043073E-1
7.1387500E+3 9.3777138E-1
7.1392500E+3 9.2488407E-1
7.1397500E+3 9.1454685E-1
7.1402500E+3 9.0178454E-1
7.1407500E+3 8.8755109E-1
7.1417500E+3 8.7536289E-1
7.1427500E+3 8.5782597E-1
7.1437500E+3 8.2763971E-1
7.1447500E+3 7.8935552E-1
7.1457500E+3 7.6684178E-1
7.1467500E+3 7.5928929E-1
7.1477500E+3 7.5026043E-1
7.1487500E+3 7.5300282E-1
7.1497500E+3 7.6712662E-1
7.1507500E+3 7.8617781E-1
7.1517500E+3 8.1202557E-1
7.1527500E+3 8.4495675E-1
7.1537500E+3 8.6470257E-1
7.1547500E+3 8.8625918E-1
7.1557500E+3 9.0630164E-1
7.1567500E+3 9.3564409E-1
7.1577500E+3 9.6459297E-1
7.1587500E+3 9.8303040E-1
7.1597500E+3 9.9992104E-1
7.1607500E+3 1.0209035E+0
7.1617500E+3 1.0402883E+0
7.1627500E+3 1.0604654E+0
7.1637500E+3 1.0742769E+0
7.1647500E+3 1.0795144E+0
7.1657500E+3 1.0821920E+0
7.1667500E+3 1.0872127E+0
7.1677500E+3 1.0722729E+0
7.1687500E+3 1.0670260E+0
7.1697500E+3 1.0596510E+0
7.1707500E+3 1.0594366E+0
7.1717500E+3 1.0626642E+0
7.1727500E+3 1.0632058E+0
7.1737500E+3 1.0658695E+0
7.1747500E+3 1.0636566E+0
7.1757500E+3 1.0575368E+0
7.1767500E+3 1.0537854E+0
7.1777500E+3 1.0483015E+0
7.1787500E+3 1.0439946E+0
7.1797500E+3 1.0397411E+0
7.1807500E+3 1.0399550E+0
7.1817500E+3 1.0413045E+0
7.1827500E+3 1.0435152E+0
7.1837500E+3 1.0418412E+0
7.1847500E+3 1.0391970E+0
7.1857500E+3 1.0368339E+0
7.1867500E+3 1.0310684E+0
7.1877500E+3 1.0257872E+0
7.1887500E+3 1.0169246E+0
7.1897500E+3 1.0070676E+0
7.1907500E+3 9.9384396E-1
7.1917500E+3 9.8417399E-1
7.1927500E+3 9.8054356E-1
7.1937500E+3 9.7421222E-1
7.1947500E+3 9.6668017E-1
7.1957500E+3 9.5697401E-1
7.1967500E+3 9.4999071E-1
7.1977500E+3 9.4485757E-1
7.1987500E+3 9.4198308E-1
7.1997500E+3 9.3740273E-1
7.2007500E+3 9.3261038E-1
7.2017500E+3 9.3294639E-1
7.2027500E+3 9.3114566E-1
7.2037500E+3 9.3163162E-1
7.2047500E+3 9.3562257E-1
7.2057500E+3 9.4120445E-1
7.2067500E+3 9.4923195E-1
7.2077500E+3 9.5403145E-1
7.2087500E+3 9.5645278E-1
7.2097500E+3 9.5935572E-1
7.2107500E+3 9.6002011E-1
7.2127500E+3 9.7177295E-1
7.2147500E+3 9.7557037E-1
7.2167500E+3 9.8421710E-1
7.2187500E+3 9.9021549E-1
7.2207500E+3 9.9421610E-1
7.2227500E+3 9.9540070E-1
7.2247500E+3 9.9211679E-1
7.2267500E+3 9.9731798E-1
7.2287500E+3 9.9871798E-1
7.2307500E+3 1.0059609E+0
7.2327500E+3 1.0098939E+0
7.2347500E+3 1.0144917E+0
7.2367500E+3 1.0232271E+0
7.2387500E+3 1.0216663E+0
7.2407500E+3 1.0258699E+0
7.2427500E+3 1.0187959E+0
7.2447500E+3 1.0190977E+0
7.2467500E+3 1.0210617E+0
7.2487500E+3 1.0121641E+0
7.2507500E+3 1.0138356E+0
7.2527500E+3 1.0161789E+0
7.2547500E+3 1.0083482E+0
7.2552500E+3 1.0090770E+0
7.2557500E+3 1.0080851E+0
7.2562500E+3 1.0048130E+0
7.2567500E+3 1.0108184E+0
7.2572500E+3 1.0069303E+0
7.2577500E+3 1.0061928E+0
7.2582500E+3 1.0069946E+0
7.2587500E+3 1.0027803E+0
7.2592500E+3 1.0069237E+0
7.2597500E+3 1.0069315E+0
7.2602500E+3 1.0061017E+0
7.2607500E+3 1.0023309E+0
7.2612500E+3 1.0089498E+0
7.2617500E+3 1.0075470E+0
7.2622500E+3 1.0093391E+0
7.2627500E+3 1.0097435E+0
7.2632500E+3 1.0057626E+0
7.2637500E+3 1.0047339E+0
7.2642500E+3 1.0053883E+0
7.2647500E+3 1.0090290E+0
7.2652500E+3 1.0111852E+0
7.2657500E+3 1.0112503E+0
7.2662500E+3 1.0134164E+0
7.2667500E+3 1.0122732E+0
7.2672500E+3 1.0090982E+0
7.2677500E+3 1.0064673E+0
7.2682500E+3 1.0093993E+0
7.2687500E+3 1.0086041E+0
7.2692500E+3 1.0110947E+0
7.2697500E+3 1.0102969E+0
7.2702500E+3 1.0032771E+0
7.2707500E+3 1.0041592E+0
7.2712500E+3 1.0049437E+0
7.2717500E+3 1.0027067E+0
7.2722500E+3 9.9831648E-1
7.2727500E+3 1.0010102E+0
7.2732500E+3 1.0021844E+0
7.2737500E+3 9.9836787E-1
7.2742500E+3 1.0013876E+0
7.2747500E+3 1.0071001E+0
7.2797500E+3 9.8728069E-1
7.2847500E+3 9.8281956E-1
7.2897500E+3 9.9873925E-1
7.2947500E+3 1.0012480E+0
7.2997500E+3 1.0014121E+0
7.3047500E+3 9.9512749E-1
7.3097500E+3 9.8646025E-1
7.3147500E+3 9.8213105E-1
7.3197500E+3 9.9218294E-1
7.3247500E+3 9.9659629E-1
7.3297500E+3 1.0049445E+0
7.3347500E+3 1.0166030E+0
7.3397500E+3 1.0208832E+0
7.3447500E+3 1.0123715E+0
7.3497500E+3 1.0062888E+0
7.3547500E+3 1.0014581E+0
7.3597500E+3 9.9933114E-1
7.3647500E+3 9.9979164E-1
7.3697500E+3 1.0008145E+0
7.3747500E+3 9.9187920E-1
7.3797500E+3 9.8725476E-1
7.3847500E+3 9.8139289E-1
7.3897500E+3 9.8112987E-1
7.3947500E+3 9.8280116E-1
7.3997500E+3 9.8928613E-1
7.4047500E+3 9.9243692E-1
7.4097500E+3 9.9433662E-1
