#%Name: Pseudobrookite
#%Empirical formula: Fe2TiO5
#%Mineral group: oxides  
#%Xtal system: Orthorhombic     
#%Edge: K
#%Sample prep: powder on kapton tape
#%Beamline: ALS 10.3.2, HxV slits = 100x20 um
#%Det:  I0=N2, Fluorescence mode (Ge solid state 7elts)
#%Ref/notes:  from Mineralogical Research Company, San Jose, CA-USA. XRD confirmed.
#%Temp: Room temp (28C)
#%Time&date: 6:10 PM 10/12/2008, Sirine C. Fakra
#%============================================================
7.0157990E+3 1.5738424E-3
7.0207991E+3 1.4685834E-3
7.0257991E+3 1.6097916E-3
7.0307992E+3 1.8183009E-3
7.0357993E+3 1.9599346E-3
7.0407994E+3 2.0305863E-3
7.0457994E+3 2.0662742E-3
7.0507995E+3 2.2503776E-3
7.0557996E+3 2.5836841E-3
7.0607997E+3 2.7817895E-3
7.0657997E+3 2.8390995E-3
7.0707998E+3 3.3981543E-3
7.0757999E+3 3.4891568E-3
7.0808000E+3 4.2399414E-3
7.0858000E+3 4.9462229E-3
7.0908001E+3 5.5625200E-3
7.0958002E+3 7.0382188E-3
7.0963002E+3 7.1296226E-3
7.0968002E+3 7.2761892E-3
7.0973002E+3 7.3857057E-3
7.0978002E+3 7.5636709E-3
7.0983002E+3 8.1065856E-3
7.0988002E+3 7.8586073E-3
7.0993002E+3 8.2619150E-3
7.0998002E+3 8.4593941E-3
7.1003002E+3 8.8119477E-3
7.1008002E+3 9.0014201E-3
7.1013003E+3 9.4027282E-3
7.1018003E+3 9.6527524E-3
7.1023003E+3 9.8582354E-3
7.1028003E+3 1.0122525E-2
7.1033003E+3 1.0453183E-2
7.1038003E+3 1.0929295E-2
7.1043003E+3 1.1186536E-2
7.1048003E+3 1.1861356E-2
7.1053003E+3 1.2069771E-2
7.1058003E+3 1.2734642E-2
7.1063003E+3 1.3239497E-2
7.1068003E+3 1.3811117E-2
7.1073003E+3 1.4341603E-2
7.1078003E+3 1.5245274E-2
7.1083004E+3 1.6065411E-2
7.1088004E+3 1.7105291E-2
7.1093004E+3 1.8476895E-2
7.1098004E+3 2.0279905E-2
7.1103004E+3 2.2626962E-2
7.1108004E+3 2.6452575E-2
7.1113004E+3 3.3470809E-2
7.1118004E+3 4.4596140E-2
7.1123004E+3 5.8184650E-2
7.1128004E+3 6.7841462E-2
7.1133004E+3 7.4018600E-2
7.1138004E+3 7.1893982E-2
7.1143004E+3 6.2590273E-2
7.1148005E+3 6.0857674E-2
7.1153005E+3 6.5770167E-2
7.1158005E+3 7.4482490E-2
7.1163005E+3 8.1371957E-2
7.1168005E+3 8.7582953E-2
7.1173005E+3 9.2457716E-2
7.1178005E+3 9.9440240E-2
7.1183005E+3 1.0972491E-1
7.1188005E+3 1.1981769E-1
7.1193005E+3 1.3223122E-1
7.1198005E+3 1.4771204E-1
7.1203005E+3 1.6765944E-1
7.1208005E+3 1.9861895E-1
7.1213005E+3 2.4025737E-1
7.1218006E+3 2.8869727E-1
7.1223006E+3 3.5191194E-1
7.1228006E+3 4.2285027E-1
7.1233006E+3 5.0223164E-1
7.1238006E+3 5.7154593E-1
7.1243006E+3 6.3213955E-1
7.1248006E+3 7.0599041E-1
7.1253006E+3 7.9269750E-1
7.1258006E+3 8.7804101E-1
7.1263006E+3 9.7332121E-1
7.1268006E+3 1.0585907E+0
7.1273006E+3 1.1533591E+0
7.1278006E+3 1.2331099E+0
7.1283007E+3 1.2907719E+0
7.1288007E+3 1.3399371E+0
7.1293007E+3 1.3706617E+0
7.1298007E+3 1.3826709E+0
7.1303007E+3 1.3777102E+0
7.1308007E+3 1.3646681E+0
7.1313007E+3 1.3392648E+0
7.1318007E+3 1.3118482E+0
7.1323007E+3 1.2868207E+0
7.1328007E+3 1.2651346E+0
7.1333007E+3 1.2514796E+0
7.1338007E+3 1.2381262E+0
7.1343007E+3 1.2318429E+0
7.1348007E+3 1.2322556E+0
7.1353008E+3 1.2306707E+0
7.1358008E+3 1.2316435E+0
7.1363008E+3 1.2289240E+0
7.1368008E+3 1.2227849E+0
7.1373008E+3 1.2145877E+0
7.1378008E+3 1.2015602E+0
7.1383008E+3 1.1828355E+0
7.1388008E+3 1.1615912E+0
7.1393008E+3 1.1434685E+0
7.1398008E+3 1.1238122E+0
7.1403008E+3 1.1048520E+0
7.1408008E+3 1.0864551E+0
7.1418009E+3 1.0645360E+0
7.1428009E+3 1.0431761E+0
7.1438009E+3 1.0245738E+0
7.1448009E+3 1.0054117E+0
7.1458009E+3 9.8987964E-1
7.1468009E+3 9.7469112E-1
7.1478009E+3 9.5976296E-1
7.1488010E+3 9.4511925E-1
7.1498010E+3 9.2955397E-1
7.1508010E+3 9.1285097E-1
7.1518010E+3 8.9269404E-1
7.1528010E+3 8.7467769E-1
7.1538010E+3 8.5526926E-1
7.1548010E+3 8.4077640E-1
7.1558011E+3 8.2874570E-1
7.1568011E+3 8.2128602E-1
7.1578011E+3 8.1652370E-1
7.1588011E+3 8.1703422E-1
7.1598011E+3 8.1915959E-1
7.1608011E+3 8.2471902E-1
7.1618011E+3 8.3209069E-1
7.1628012E+3 8.4289511E-1
7.1638012E+3 8.5686794E-1
7.1648012E+3 8.6934242E-1
7.1658012E+3 8.8382222E-1
7.1668012E+3 9.0057563E-1
7.1678012E+3 9.1531317E-1
7.1688013E+3 9.2991706E-1
7.1698013E+3 9.4572785E-1
7.1708013E+3 9.5975880E-1
7.1718013E+3 9.7532617E-1
7.1728013E+3 9.9135986E-1
7.1738013E+3 1.0072639E+0
7.1748013E+3 1.0194343E+0
7.1758014E+3 1.0281633E+0
7.1768014E+3 1.0341949E+0
7.1778014E+3 1.0389431E+0
7.1788014E+3 1.0429704E+0
7.1798014E+3 1.0461064E+0
7.1808014E+3 1.0479472E+0
7.1818014E+3 1.0423175E+0
7.1828015E+3 1.0389650E+0
7.1838015E+3 1.0341251E+0
7.1848015E+3 1.0285174E+0
7.1858015E+3 1.0222156E+0
7.1868015E+3 1.0163050E+0
7.1878015E+3 1.0096218E+0
7.1888016E+3 1.0050833E+0
7.1898016E+3 9.9976081E-1
7.1908016E+3 9.9557757E-1
7.1918016E+3 9.9372599E-1
7.1928016E+3 9.9279277E-1
7.1938016E+3 9.9124281E-1
7.1948016E+3 9.9169630E-1
7.1958017E+3 9.9371296E-1
7.1968017E+3 9.9599033E-1
7.1978017E+3 9.9856653E-1
7.1988017E+3 1.0019010E+0
7.1998017E+3 1.0047408E+0
7.2008017E+3 1.0071183E+0
7.2018017E+3 1.0094052E+0
7.2028018E+3 1.0117068E+0
7.2038018E+3 1.0130916E+0
7.2048018E+3 1.0144346E+0
7.2058018E+3 1.0120439E+0
7.2068018E+3 1.0131565E+0
7.2078018E+3 1.0114725E+0
7.2088018E+3 1.0113965E+0
7.2098019E+3 1.0060413E+0
7.2108019E+3 1.0054473E+0
7.2128436E+3 1.0023780E+0
7.2148853E+3 9.9784715E-1
7.2169270E+3 9.9424823E-1
7.2189687E+3 9.8901554E-1
7.2210104E+3 9.8211731E-1
7.2230521E+3 9.7758538E-1
7.2250938E+3 9.7146836E-1
7.2271355E+3 9.6551363E-1
7.2291772E+3 9.6070921E-1
7.2312189E+3 9.5601596E-1
7.2332605E+3 9.5257028E-1
7.2353022E+3 9.5151070E-1
7.2373439E+3 9.5207771E-1
7.2393856E+3 9.5303338E-1
7.2414273E+3 9.5764364E-1
7.2434690E+3 9.6561662E-1
7.2455107E+3 9.7554805E-1
7.2475524E+3 9.8693918E-1
7.2495941E+3 1.0000463E+0
7.2516358E+3 1.0112651E+0
7.2536775E+3 1.0198774E+0
7.2557192E+3 1.0265510E+0
7.2577609E+3 1.0307356E+0
7.2598026E+3 1.0320507E+0
7.2603026E+3 1.0329160E+0
7.2608026E+3 1.0336656E+0
7.2613026E+3 1.0310065E+0
7.2618026E+3 1.0321956E+0
7.2623027E+3 1.0330405E+0
7.2628027E+3 1.0316077E+0
7.2633027E+3 1.0308509E+0
7.2638027E+3 1.0300556E+0
7.2643027E+3 1.0300204E+0
7.2648027E+3 1.0268168E+0
7.2653027E+3 1.0268972E+0
7.2658027E+3 1.0266496E+0
7.2663027E+3 1.0259774E+0
7.2668027E+3 1.0251516E+0
7.2673027E+3 1.0218037E+0
7.2678027E+3 1.0208298E+0
7.2683027E+3 1.0212137E+0
7.2688028E+3 1.0205657E+0
7.2693028E+3 1.0185282E+0
7.2698028E+3 1.0191217E+0
7.2748028E+3 1.0079923E+0
7.2798029E+3 1.0032297E+0
7.2848030E+3 1.0039810E+0
7.2898031E+3 1.0037116E+0
7.2948031E+3 1.0050730E+0
7.2998032E+3 1.0054932E+0
7.3048033E+3 1.0057819E+0
7.3098034E+3 1.0095957E+0
7.3148034E+3 1.0086201E+0
7.3198035E+3 1.0057685E+0
7.3248036E+3 1.0030718E+0
7.3298037E+3 9.9839251E-1
7.3348038E+3 9.9369246E-1
7.3398038E+3 9.9044240E-1
7.3448039E+3 9.8996880E-1
7.3498040E+3 9.9094684E-1
7.3548041E+3 9.9382943E-1
7.3598041E+3 9.9613835E-1
7.3648042E+3 9.9916979E-1
7.3698043E+3 1.0012589E+0
7.3748044E+3 1.0008430E+0
7.3798044E+3 1.0021040E+0
7.3848045E+3 1.0031398E+0
7.3898046E+3 1.0025886E+0
7.3948047E+3 1.0039845E+0
7.3998047E+3 1.0034389E+0
7.4048048E+3 1.0013864E+0
7.4098049E+3 1.0015174E+0
7.4148050E+3 9.9983174E-1
